acc_x,acc_y,acc_z
-0.077,0.665,-1.153
0.018,0.359,-0.87
-0.105,0.119,-0.803
-0.292,0.009,-0.506
0.103,0.65,-0.339
0.349,0.384,-0.416
0.023,0.092,-0.368
-0.48,0.101,-0.067
0.046,1.775,1.524
-3.989,-2.388,-0.601
0.936,-0.648,1.396
-6.585,5.815,2.336
4.3,0.294,-1.553
-1.246,-1.158,0.044
2.99,-1.978,-1.725
0.365,-0.276,-0.314
-2.38,-0.55,-0.719
-0.396,3.082,-0.512
-1.334,1.659,-1.595
0.636,1.992,-0.163
3,-3.227,1.521
1.199,-1.625,0.999
-6.853,-0.321,3.02
-2.37,-0.719,0.404
-0.9,1.733,-0.27
-5.392,5.019,3.279
0.98,-1.127,1.381
-0.204,0.503,-0.258
-0.871,0.761,-0.601
-0.46,0.452,-0.599
-0.588,0.131,-0.287
0.787,-0.545,-0.521
0.581,-1.022,-0.048
0.945,-0.349,0.42
-0.621,0.358,-1.071
0.019,0.363,-0.264
2.2,-0.237,1.448
17.509,-13.384,14.089
26.303,-14.038,26.301
-6.777,-5.329,-25.211
-8.322,0.879,38.479
-4.737,26.743,-12.266
0.194,10.452,-12.711
-0.587,3.975,-8.355
0.664,0.579,-0.852
-0.83,-0.336,5.012
3.12,-1.875,0.623
1.421,-3.034,6.244
6.332,-1.976,3.935
0.67,-2.688,4.677
2.045,-2.383,1.938
0.119,-0.733,1.987
-0.417,-0.509,1.276
0.19,-0.156,0.826
0.014,0.027,0.43
-0.796,-0.158,0.476
-0.909,0.001,0.089
-0.261,0.269,-0.052
-1.108,0.133,-0.83
-0.308,0.96,-1.349
0.488,0.494,-1.055
0.815,0.026,-0.632
-0.574,0.665,-0.304
0.769,0.202,-0.322
0.174,0.074,0.01
0.751,-0.321,0.242
0.292,-0.226,0.026
-0.871,3.697,0.418
-1.287,-0.35,0.24
-0.166,0.26,-0.498
0.185,-0.054,-0.537
1.242,-1.669,-0.814
-1.038,-0.36,0.121
0.536,0.593,2.057
-2.155,2.435,0.932
-0.905,0.022,-0.797
2.389,-0.477,-1.11
-0.575,0.743,-0.017
-0.73,-0.281,-0.185
0.583,-0.411,0.401
-0.664,-0.171,0.303
0.413,-0.028,0.207
-0.316,0.025,0.102
-0.127,0.157,-0.091
-0.23,0.062,-0.07
0.352,-0.02,-0.009
-0.173,-0.019,-0.013
-0.027,0.03,0.003
0.105,0.134,-0.139
0.038,0.036,0.026
-0.27,-0.048,0.078
0.627,-0.225,-0.059
0.249,-0.454,0.901
0.251,-0.589,0.474
-0.159,0.105,-0.101
-0.521,0.218,0.064
-0.352,0.604,-0.637
0.455,0.107,-0.951
-0.07,0.564,-0.594
-0.898,0.67,-0.521
-0.903,1.474,-0.051
0.058,0.337,-0.074
-1.055,-0.296,0.464
1.406,-1.798,-0.942
-0.294,-1.059,0.596
4.854,-1.354,-0.124
-0.993,1.104,0.574
-1.852,0.536,0.205
-1.179,0.399,1.223
-1.495,-0.304,0.836
0.366,0.112,0.45
-0.093,-0.229,-0.471
-0.083,0.319,-0.134
-0.306,0.227,0.227
0.085,0.529,-0.22
-0.246,-0.246,0.048
0.07,0.166,0.729
11.082,-7.675,14.124
22.477,-19.593,32.924
21.793,-6.144,-39.745
-6.214,-1.853,42.811
-0.078,23.751,-16.244
3.49,7.685,-13.102
-2.124,4.455,-8.37
-2.839,2.003,0.371
-0.551,1.825,-0.096
0.377,1.088,1.122
0.686,0.895,1.846
1.53,-0.158,2.461
0.531,-0.399,3.353
1.282,-0.128,2.8
0.455,-0.243,1.758
-0.037,-0.217,0.794
-0.119,-0.635,0.538
0.229,0.096,0.755
-0.571,-0.066,-0.041
-0.52,0.274,0.34
-0.87,-0.186,-0.082
0.901,0.497,-0.103
-0.616,-0.023,0.054
-0.096,0.236,0.27
-0.413,-0.123,0.103
-0.555,0.142,0.028
0.252,0.129,0.348
0.192,0.143,0.45
-0.471,-0.078,-0.109
-0.437,0.004,0.71
-0.51,0.075,0.358
-0.522,-0.052,0.086
-0.15,-0.226,0.391
-0.356,0.109,-0.043
0.521,0.052,-0.019
0.5,0.046,-0.072
0.085,0.093,0.026
-0.098,0.018,0.211
-0.113,0.026,-0.122
0.119,-0.045,-0.055
0.032,0.28,0.552
-0.149,-0.62,-0.281
-0.831,0.627,1.076
0.022,-0.173,-0.164
-0.402,0.186,0.099
-0.16,-0.131,0.03
-0.075,-0.055,0.247
-0.071,0.154,-0.62
-0.915,0.741,-0.236
-1.536,1.019,0.007
-0.709,-2.275,0.656
0.163,1.252,3.08
-1.283,0.413,-0.224
2.788,0.047,-2.402
1.332,-1.511,0.001
-0.421,-0.18,1.187
-0.67,0.627,0.451
0.089,0.396,-0.358
1.137,0.044,-1.008
0.009,0.069,-0.998
0.386,0.419,-1.621
0.635,0.337,-1.384
-0.769,0.836,-1.227
0.269,0.211,-0.749
-0.556,1.171,-0.55
-1.722,0.537,-0.164
-1.252,-0.092,-0.362
0.091,0.168,1.514
0.63,-0.929,1.253
0.646,-0.28,0.389
-3.983,-0.013,1.415
-1.174,-0.171,1.577
1.257,-0.448,0.22
-0.605,0.294,-0.728
-1.046,1.073,-0.787
-0.787,1.776,-1.035
15.475,-4.159,10.227
18.533,-12.543,21.307
17.023,-9.901,19.099
2.331,30.078,29.256
-10.944,21.223,-18.669
-1.573,8.51,-10.38
-6.722,3.36,-8.417
-0.621,0.819,-2.64
-1.201,0.258,1.006
-0.227,-0.025,-0.066
-0.048,0.511,-0.581
-0.742,1.924,-0.328
-1.317,2.143,-1.515
-0.809,1.328,-1.344
0.419,1.23,0.644
0.444,0.663,-1.504
-1.733,-0.427,1.722
2.697,0.226,1.981
-1.17,-1.13,0.438
1.817,-0.453,1.903
1.434,0.016,0.618
0.521,0.557,2.246
-0.128,-0.186,-0.095
-0.105,0.455,1.349
0.731,-0.413,0.408
-1.065,0.134,0.761
-1.114,0.363,-0.36
-0.663,0.965,0.015
-0.999,0.28,-0.178
-0.474,0.867,0.092
-0.26,-0.039,0.118
-0.104,0.338,0.199
0.132,0.023,0.333
-0.127,-0.01,-0.14
0.154,0.01,-0.223
-0.069,0.461,-0.275
0.454,-0.007,-0.744
-0.345,0.378,-0.672
0.406,0.234,-0.456
0.154,0.011,-1.064
-0.544,0.557,0.022
-0.411,1.17,-0.342
-0.988,0.163,0.26
0.404,-0.412,0.118
-0.129,-0.801,-0.102
1.022,-0.577,-0.087
0.852,0.175,-0.626
-1.083,0.326,-0.134
-1.491,0.622,-0.598
-0.087,0.418,0.275
0.342,-0.333,0.55
0.686,0.582,0.062
-0.02,-0.235,-0.029
-0.792,0.858,-0.129
1.275,0.212,-0.41
-0.257,-0.418,-0.866
1.121,1.039,0.245
0.159,0.37,3.122
9.983,-21.546,12.169
23.172,0.281,33.411
-19.828,-10.944,-6.796
-2.78,3.014,33.383
0.692,24.83,-20.746
3.557,1.045,-10.416
-6.492,6.97,-2.992
-0.109,1.876,-1.195
0.929,-1.073,1.219
-0.113,1.422,-0.411
0.81,0.563,-0.316
-0.66,1.407,0.123
-0.692,2.411,-0.669
0.314,-0.453,0.725
-0.46,-1.189,1.231
3.054,0.039,0.076
0.574,-0.811,0.655
-0.025,0.167,0.815
1.581,-0.17,0.01
-1.24,-0.324,-0.251
-0.402,-0.905,-0.465
-0.689,0.498,0.722
0.805,-0.117,-0.114
-0.709,0.528,-0.146
-0.304,0.321,-0.648
-0.501,0.666,-0.293
-0.164,0.421,-0.469
-0.187,-0.109,-0.218
0.022,0.308,0.57
-0.011,-0.036,-0.684
0.438,0.206,1.201
0.207,-0.232,-0.671
0.567,0.293,0.425
-0.179,0.495,-0.352
-0.068,-0.017,0.043
0.07,0.328,-0.872
-0.206,-0.029,0.3
0.114,-0.37,-1.338
-0.097,1.009,1.252
0.578,0.434,0.051
-0.354,-0.58,0.241
0.215,-0.446,1.54
0.67,-0.511,0.252
-0.379,-0.372,0.246
0.309,-0.005,-0.005
0.247,0.097,-0.274
-0.133,0.439,-0.227
-0.367,0.35,-0.135
1.021,-0.088,-0.285
-0.915,0.425,1.077
0.304,-0.486,-0.035
0.032,-0.189,0.075
-0.562,0.504,0.039
0.55,0.227,-0.325
-0.89,0.632,-0.971
-0.053,0.854,-0.545
-0.268,0.42,-1.012
-0.119,-0.219,-0.138
0.391,-0.264,0.269
0.55,-0.621,0.009
0.29,-0.607,-0.315
1.375,-0.305,-0.199
-0.261,-0.124,-0.271
0.102,0.947,-0.398
-1.45,0.376,0.071
-0.78,-0.07,0.396
-0.637,-0.33,0.101
-0.287,-0.381,0.497
0.744,-0.586,-0.101
-1.563,-0.709,0.014
0.369,0.632,-0.023
2.23,0.319,-0.162
-1.416,0.294,0.082
1.605,0.172,-0.638
-0.407,0.078,-0.034
0.091,0.191,0.97
0.785,-0.767,0.501
3.187,-2.365,5.537
21.774,-23.271,16.225
16.725,16.368,34.133
-3.624,5.198,10.087
2.515,20.582,21.684
-5.699,19.012,-23.394
3.139,-0.075,-10.641
-8.568,8.128,-1.246
-1.244,1.155,0.856
1.811,0.726,0.514
0.303,0.207,0.597
0.034,-0.486,0.281
1.089,-0.18,1.204
0.258,-0.233,0.404
-0.361,1.43,-0.241
-0.059,1.402,-0.49
-0.741,1.337,0.434
0.663,0.489,-0.251
-0.913,-0.343,-0.048
-0.656,1.435,-0.37
0.283,-0.287,-0.972
-0.372,0.218,0.46
0.763,-0.116,-1.153
-1.014,-1.005,0.45
0.788,-0.422,1.484
-0.517,-0.957,-0.062
0.111,-0.168,1.449
0.72,0.288,-0.021
-0.783,-0.289,0.232
0.432,0.459,1.061
-0.494,0.025,-0.153
-0.24,-0.051,-0.375
0.468,0.668,0.199
-0.964,0.369,-0.427
-0.284,0.549,0.514
-0.387,0.46,-0.456
-0.923,0.69,0.036
0.67,0.375,-0.044
-0.769,0.053,-0.016
-0.072,-0.071,0.263
-0.182,-0.071,0.356
0.428,0.191,0.259
-0.39,0.064,-0.002
0.029,0.142,-0.091
0.077,0.096,-0.154
1.855,-0.733,-0.077
-0.387,0.004,-0.256
0.094,-0.123,0.043
-0.114,0.135,0.082
0.14,0.015,-0.098
0.146,0.37,-0.077
-0.137,0.123,-0.367
0.093,0.227,-0.19
-0.239,-0.048,-0.361
-0.183,0.127,-0.079
-0.092,0.038,-0.057
0.082,0.016,0.047
-0.083,0.023,-0.141
-0.059,0.02,-0.113
0.038,0.003,-0.074
-0.084,-0.06,-0.075
0.021,0.203,0.155
-0.186,-0.102,-0.342
-0.538,-0.286,-0.539
0.009,0.148,0.537
-0.307,0.117,-0.104
0.055,0.204,0.214
-0.571,0.182,-0.015
-0.531,0.816,-0.17
0.063,0.353,-0.196
-0.797,0.439,-0.49
0.805,-0.283,0.537
0.052,-0.178,-0.574
-0.713,0.547,0.327
0.895,0.225,-0.624
-0.764,-0.558,-0.632
0.687,-1.088,0.216
0.115,-0.698,-0.273
2.676,-1.013,-0.155
-0.489,-0.094,0.176
0.9,1.371,-0.223
-0.741,0.611,-0.519
-0.624,-0.321,0.378
-0.796,0.132,0.378
0.244,0.125,-0.349
0.433,0.21,-0.136
0.427,0.049,-0.46
0.28,0.251,-0.04
2.837,-2.849,6.783
12.188,-22.892,9.662
9.023,36.523,24.819
-12.236,35.943,-6.97
-3.279,14.469,-11.297
1.54,-0.215,-10.745
-5.573,7.227,-0.015
-0.947,1.186,2.197
1.81,-1.131,0.954
0.05,-0.212,-0.27
-0.295,-0.09,1.046
0.541,0.022,0.321
-0.971,-0.311,0.042
-0.303,0.311,0.332
-0.085,0.055,0.431
-0.829,-0.276,0.455
-0.46,-1.128,0.142
-0.853,0.113,0.79
-0.578,-0.293,0.277
-1.65,0.276,0.654
-0.596,0.388,-0.492
-0.916,0.297,1.415
-0.045,0.265,0.226
1.369,-0.316,-0.198
0.352,0.991,-0.18
1.313,0.315,-1.555
0.906,0.831,0.203
0.902,0.637,-1.691
0.905,0.138,0.049
0.432,0.239,-0.289
0.781,0.221,0.135
-0.095,-0.036,-0.696
-1.04,0.065,0.472
1.572,2.808,-1.968
1.43,1.08,-0.618
-1.614,0.007,0.356
0.665,-2.026,1.854
-1.07,-3.204,0.323
-0.846,0.776,1.115
0.489,0.273,-0.46
-0.488,0.3,0.651
1.948,-0.206,0.515
-0.941,0.279,0.5
0.08,-0.729,0.008
0.015,0.043,0.166
0.279,-0.374,-0.132
-0.154,-0.31,0.323
0.321,-0.082,0.035
0.227,-0.826,-0.558
-0.379,-0.674,0.061
0.68,-0.812,-0.61
-0.474,0.922,-0.088
-0.055,0.614,0.026
0.003,0.538,0.203
-1.568,0.576,0.085
0.101,0.341,0.315
0.219,0.361,-0.148
-0.432,0.303,-0.383
0.972,0.127,-0.014
-0.246,-0.636,-0.247
0.407,-0.342,-0.094
-0.243,1.151,-0.254
-0.811,0.813,-0.262
-0.196,-0.618,-0.042
0.681,0.143,-0.002
-0.315,0.259,-0.04
-0.352,0.302,-0.153
-0.182,-0.107,0.025
-0.033,-0.071,0.061
-0.002,-0.005,-0.347
-0.191,0.129,-0.05
0.119,0.141,-0.189
-0.408,-0.678,-0.054
0.988,-0.378,0.066
0.154,-1.035,0.218
0.635,-0.571,0.543
-1.817,0.01,0.2
0.597,1.105,-0.265
-0.367,0.569,-0.364
-0.607,0.031,0.035
-0.411,0.311,0.387
-0.392,-0.029,-0.066
-0.397,0.499,0.359
-0.761,0.048,-0.095
0.667,0.176,-0.14
0.424,-1.067,0.415
1.57,0.101,1.51
1.045,0.335,0.925
-1.267,0.144,-0.652
1.461,-0.167,1.828
1.879,-1.206,1.759
3.095,-3.326,1.54
15.697,-13.832,12.687
28.514,5.084,22.89
7.59,28.48,23.551
-10.4,19.035,-21.306
2.999,4.114,-14.099
-5.416,4.127,-1.798
-1.081,0.833,0.541
-0.505,-0.477,0.462
0.269,0.007,1.314
0.524,0.906,0.546
-0.62,0.682,0.29
0.613,0.408,0.219
-1.408,1.215,-0.716
-1.067,0.842,-1.333
-1.12,1.036,-0.609
0.704,1.232,-0.693
-1.527,0.717,0.852
-0.129,-0.087,0.589
0.403,0.947,0.32
-0.584,1.771,1.816
-1.012,1.414,2.342
0.031,0.413,1.471
-1.16,-0.059,0.357
0.191,0.312,0.546
-0.115,-1.398,0.781
-0.233,-0.816,0.743
-0.03,-0.29,-0.202
-0.215,0.601,0.6
0.952,-0.485,0.477
0.199,0.941,-0.632
0.171,1.558,0.959
0.337,-0.422,0.283
1.163,-0.561,0.568
0.512,-0.85,0.124
2.21,-0.233,0.486
-1.005,-0.608,-0.661
0.323,-0.172,-0.124
0.025,-0.334,-0.606
-0.373,0.172,-0.131
0.699,-0.403,-0.632
-0.487,0.11,-0.59
-0.327,0.31,-0.976
-0.703,0.15,-0.614
0.475,0.18,-0.222
-0.464,-0.015,-0.258
0.124,0.55,0.309
-0.856,0.495,0.868
0.176,0.262,-0.285
-0.488,0.16,-0.186
-0.211,0.32,0.41
0.443,-0.126,0.14
-0.024,0.167,0.281
-0.603,1.237,-0.013
-1.088,0.087,-0.651
-0.602,-0.239,-0.219
-0.23,-1.459,-0.394
0.399,-1.087,-0.75
0.665,-0.267,-0.388
0.083,-0.145,-0.692
0.678,0.642,-0.283
0.111,0.044,-0.114
0.235,0.275,-0.609
-0.597,0.653,-0.495
-0.367,0.249,0.053
1.041,-0.443,2.388
-0.111,-0.425,1.197
5.308,-5.285,5.837
16.663,-20.13,23.605
-28.013,7.617,-2.838
5.275,43.919,17.557
-13.677,23.685,-14.844
3.053,12.27,-10.12
-5.064,3.339,-9.333
-4.104,5.701,-1.788
-1.502,3.837,0.843
1.299,0.286,1.762
0.047,-0.171,0.809
0.49,-0.213,1.168
0.203,0.764,0.311
0.621,0.669,0.141
-0.658,0.338,1.134
-0.244,0.237,0.329
-1.053,0.485,0.893
1.179,-0.175,-0.101
-1.173,-0.813,0.84
-0.334,0.85,-0.469
-0.346,0.189,0.656
-0.453,-0.145,-0.16
0.739,0.712,0.04
-1.093,-0.335,-0.28
0.305,0.118,0.443
-0.304,0.46,-0.067
-0.612,-0.078,0.151
0.362,0.215,0.267
0.182,0.199,-0.405
0.446,0.249,-0.557
0.552,-0.614,-0.316
0.853,0.086,-0.045
0.329,1.107,1.222
-1.298,1.036,-0.052
0.393,0.291,-0.265
0.074,0.094,-0.614
-0.884,-0.462,0.167
0.42,0.191,-0.63
-0.732,-0.06,-0.047
1.577,-0.446,-0.541
-0.79,0.959,-0.109
0.031,0.183,0.144
-0.737,0.331,-0.245
-0.716,-0.577,1.485
1.867,-0.603,0.4
-0.734,-0.407,0.019
-0.193,-0.038,0.582
-0.812,0.677,0.56
-0.468,0.213,0.307
-0.472,0.013,0.072
-0.274,-0.156,-0.301
0.252,0.133,-0.65
-0.358,0.593,-0.138
-0.162,0.476,-0.617
-0.245,0.026,0.048
0.125,-0.143,0.213
0.369,-0.271,-0.117
0.397,-0.069,0.051
0.149,-0.269,-0.068
0.219,-0.114,-0.044
-0.19,-0.178,-0.223
0.223,0.228,-0.337
-0.287,0.054,-0.092
-0.294,0.433,-0.001
-0.369,0.425,0.365
-0.371,0.379,0.077
-0.658,0.102,-0.136
0.334,0.586,0.269
0.163,-0.597,0.202
0.207,-0.86,0.473
-0.595,-0.265,-0.201
-0.31,0.486,0.086
0.301,0.664,0.198
3.913,-0.766,6.526
21.363,-19.736,14.746
24.067,9.179,30.108
-24.722,-7.765,4.646
6.303,12.212,8.212
-8.504,18.379,-18.584
-8.374,20.249,-18.172
-9.095,5.816,-3.973
-0.865,3.086,-1.695
0.624,0.619,1.316
0.195,1.023,1.042
0.938,-0.188,0.736
0.836,-1.146,0.788
0.68,-0.752,0.93
0.19,-0.357,0.372
-0.348,0.25,-0.141
-0.583,-0.103,0.246
-1.231,1.289,-0.477
-1.333,0.057,-0.592
-0.833,-0.834,0.107
0.197,1.287,-0.607
0.996,0.108,-0.07
-0.369,1.094,-0.183
-0.264,0.592,-0.755
-0.331,0.293,-0.781
1.38,0.981,-0.321
0.315,0.134,-0.132
-0.322,0.374,0.242
0.69,-0.312,-0.366
0.43,0.258,1.895
-0.406,-0.423,-0.76
0.404,-0.374,1.151
-0.648,-0.223,0.175
-0.334,0.612,-0.537
0.339,0.314,-0.221
-0.649,0.758,-0.416
-0.712,1.45,0.329
-0.676,0.568,-1.172
-1.707,0.477,0.27
3.293,0.475,0.231
-0.828,-0.294,0.676
0.366,-0.159,1.618
0.788,-0.226,1.104
-0.79,-0.537,0.065
0.086,-0.831,0.068
0.45,-0.178,0.522
0.862,0.059,0.528
-0.242,0.031,0.251
0.902,-0.578,-0.636
-0.804,-0.622,-0.385
0.279,-0.022,-0.052
-0.731,0.775,-0.073
0.575,0.413,-0.827
-0.681,0.484,-0.455
-0.583,0.277,-0.147
-1.163,-0.162,-0.214
-0.402,-0.12,-0.364
0.51,-0.045,-0.111
-0.046,-0.262,-0.565
0.492,0.53,-0.313
-0.34,-0.017,-0.851
-0.323,0.09,-1.167
1.747,-0.416,-0.249
0.034,-0.661,0.064
0.357,0.27,0.615
0.032,0.6,-0.275
-0.967,0.517,-0.619
0.06,0.316,-0.339
-0.78,0.445,-0.027
-0.149,-0.041,-0.247
-0.17,0.146,-0.257
-0.302,0.401,-0.224
0.231,-0.286,-0.034
-0.152,-0.302,0.404
0.862,-0.339,0.292
0.047,0.029,0.271
-0.338,-0.007,-0.06
-0.855,0.022,-0.176
-0.444,-0.002,-0.028
-0.742,0.441,0.554
-0.08,0.091,-0.312
0.427,-1.109,-0.245
1.652,-0.091,0.561
0.327,-0.072,-0.041
2.163,-1.371,0.525
14.064,-21.686,20.513
-2.557,2.261,-0.932
9.375,46.694,21.359
-14.128,24.786,-4.611
-10.017,14.789,-13.238
-3.647,3.514,-6.219
-3.628,1.953,-0.45
-1.429,1.042,-0.023
0.188,1.529,-0.274
-0.561,-0.115,-0.394
-1.232,0.946,0.324
-1.144,2.886,-1.019
-0.323,2.42,0.079
-2.435,0.364,0.757
3.137,1.577,-1.699
-0.179,0.856,1.384
2.429,-2,2.829
1.69,-1.347,2.541
-0.542,-1.253,2.785
2.174,-0.755,0.687
1.123,-0.824,0.117
-0.663,-0.718,-0.039
-0.762,-0.277,-0.478
-1.638,0.292,-0.054
-1.541,0.66,-0.111
-0.96,0.236,0.667
0.211,0.722,0.926
-0.151,0.038,0.318
0,-0.237,0.636
-0.268,-0.202,0.402
-1.05,3.747,1.387
0.618,-0.018,0.515
0.701,-0.299,0.452
-0.89,0.372,0.22
-0.111,-0.869,0.499
0.549,-0.436,0.565
0.048,0.089,-0.046
0.126,0.268,-0.208
0.255,0.03,-0.122
-0.149,-0.084,-0.044
-0.14,0.07,0.089
0.012,0.079,-0.183
0.062,-0.219,0.073
-0.032,-0.008,-0.079
-0.015,0.082,-0.083
-0.388,0.094,-0.369
0.346,0.004,0.295
0.222,0.082,0.023
0.013,0.101,-0.256
0.006,-0.007,0.09
0.208,0.134,-0.232
0.009,0.045,-0.056
-0.008,0.075,0.009
-0.116,-0.091,0.081
-0.263,-0.111,0.072
0.05,0.198,0.027
0.241,-0.194,-0.026
0.085,0.113,0.013
0.022,-0.052,0.119
0.175,0.14,0.039
-0.045,0.02,0.033
-0.113,-0.052,-0.153
-0.226,0.169,0.171
0.064,-0.101,-0.115
0.074,0.002,-0.012
-0.168,0.15,-0.066
0.063,-0.105,0.088
0.027,0.099,-0.187
0.189,0.025,0.001
0.554,-0.092,-0.475
-0.284,0.475,0.141
