acc_x,acc_y,acc_z
2.762,-4.23,3.271
-0.253,-0.024,-0.394
-0.144,0.333,-0.593
-0.138,0.234,-0.463
-0.312,0.084,-0.501
-0.101,0.06,-0.205
-0.281,0.251,-0.487
-0.031,-0.044,-0.219
-0.027,0.09,-0.554
0.416,0.185,-0.342
-0.307,-0.014,-0.124
0.07,0.112,-0.312
0.075,0.037,-0.127
-0.191,-0.006,-0.14
0.269,-0.075,-0.286
-0.195,-0.72,-0.026
0.689,-0.412,0.166
-0.461,-0.601,0.43
-0.785,0.09,0.898
-0.923,0.353,0.448
-0.819,0.028,0.477
0.478,-0.451,-0.801
0.174,0.354,-0.666
1.289,0.314,0.746
1.375,0.464,0.034
-1.563,0.177,-1.231
0.662,0.405,-1.237
0.189,0.059,-0.432
-0.089,0.371,-0.122
0.356,0.396,-0.205
-0.136,0.662,0.128
0.083,-0.124,0.198
-0.079,-0.758,0.079
0.245,-0.605,0.082
0.941,-0.27,0.028
0.085,0.059,0.058
0.314,0.021,-0.355
0.205,0.136,-0.223
0.717,0.209,-0.519
0.069,0.038,-0.204
0.179,-0.037,-0.051
-0.037,0.536,-0.415
-0.487,1.064,-1.114
-0.645,0.126,-1.024
0.375,-1.428,1.479
0.675,-0.985,0.555
-0.593,-0.162,0.49
-0.344,0.115,0.458
-0.736,-0.078,0.383
-0.686,-0.025,0.492
-0.375,-0.074,0.467
-0.196,-0.031,0.251
-0.426,0.173,0.166
-0.251,0.454,0.706
-0.283,-0.268,0.448
0.177,-0.489,0.274
0.494,0.027,-0.41
0.419,0.273,-0.494
-0.894,0.63,0.022
-0.378,0.118,0.157
0.872,-0.113,-0.052
-0.492,0.196,0.18
-0.084,0.117,-0.435
0.27,0.093,-0.137
-0.03,-0.082,-0.073
-0.008,-0.072,0.005
-0.055,-0.119,-0.15
-0.227,-0.051,-0.006
0.043,0.067,-0.054
0.092,0.021,-0.139
0.089,0.041,-0.03
-0.022,-0.014,-0.125
0.009,-0.004,-0.03
0.004,-0.042,0.031
0.028,-0.017,-0.072
0.018,-0.072,0.004
-0.029,-0.028,-0.065
-0.002,-0.009,-0.072
-0.043,0.029,-0.037
-0.05,-0.013,-0.047
0.05,0.006,-0.099
-0.083,-0.053,-0.081
0.011,-0.063,-0.054
0.079,0.061,-0.004
0.028,0.011,-0.008
0.079,-0.008,0.033
-0.09,-0.021,0.028
0.051,-0.052,-0.06
-0.066,-0.034,-0.006
0.06,-0.012,0.057
-0.051,-0.034,-0.021
0.096,-0.059,-0.047
-0.029,-0.006,-0.051
-0.027,-0.027,0.008
0.023,0.004,0.029
0.017,0.043,-0.072
0.007,-0.057,0.061
0.009,-0.008,0.002
-0.061,-0.085,0.099
0.091,-0.004,0.118
0.024,-0.092,-0.015
-0.059,0.055,-0.082
0.058,0.028,-0.026
0.123,-0.078,-0.146
-0.395,-0.024,0.093
0.356,-0.094,-0.075
0.133,-0.047,-0.138
-0.031,0.06,-0.135
0.09,-0.035,0.022
0.03,-0.013,0.018
0.001,-0.013,0.036
0.007,-0.041,0.048
0.063,0.027,-0.021
0.44,0.274,-0.68
-0.948,-0.027,-0.036
-0.197,0.349,-0.133
-0.387,0.341,-0.014
-0.064,0.226,0.171
0.153,-0.311,0.261
0.371,-0.563,0.477
0.257,-0.747,0.288
0.225,-0.446,0.133
0.291,0.078,-0.145
0.105,-0.034,-0.347
-0.063,0.263,-0.24
0.062,0.246,-0.278
-0.539,0.182,-0.25
0.236,-0.04,0.093
0.082,0.008,0.044
-0.296,0.356,-0.089
-0.254,0.348,-0.273
0.098,-0.052,0.352
0.178,-0.916,0.645
0.167,-0.494,0.167
-3.087,2.426,-0.027
-0.875,-0.271,0.802
0.374,-0.226,0.156
-0.577,-0.056,0.266
0.337,0,0.17
-0.129,-0.118,0.294
0.031,-0.155,0.092
-0.187,0.105,0.117
-0.444,-0.018,0.189
-0.003,0.031,0.205
0.012,-0.086,0.123
0.019,-0.017,0.195
0.041,0.08,0.081
-0.05,0.028,0.018
0.11,0.069,0.013
-0.077,0.216,0.048
-0.138,0.165,0.146
0.116,-0.093,-0.032
0.238,-0.319,0.197
0.224,-0.445,0.126
0.5,-0.435,0.039
-0.345,0.181,-0.167
-0.002,0.175,-0.463
-0.165,0.496,-0.388
0.081,0.174,-0.185
0.173,0.005,-0.061
0.245,-0.062,-0.035
-0.078,0.017,-0.009
-0.072,0.108,-0.036
-0.057,0.175,-0.128
0.335,-0.271,0.358
0,-0.278,0.32
0.476,-0.616,0.683
-0.279,-0.203,0.502
-0.248,-0.145,0.428
-0.177,0.065,0.45
-0.353,-0.128,0.373
-0.248,-0.185,0.374
-0.307,0.076,0.475
-0.018,-0.028,0.128
-0.206,0.038,0.125
-0.187,-0.183,0.213
-0.097,-0.084,0.282
-0.196,-0.102,-0.041
0.327,0.27,-0.174
0.083,-0.042,0.176
0.075,0.01,-0.072
0,0.088,-0.109
0.089,0.133,-0.013
0.073,-0.055,-0.124
-0.016,-0.204,0.153
0.046,-0.126,0.136
0.092,0.145,-0.403
-0.373,-0.188,-0.025
0.138,-0.145,0.219
0.298,-0.114,0.285
-0.004,-0.229,0.204
-0.143,-0.203,-0.102
-0.113,0.055,-0.309
0.174,0.32,-0.448
-0.3,-0.117,-0.124
0.357,-0.428,0.167
0.09,-0.093,0.07
-0.257,0.241,0.626
-1.543,1.522,1.311
-2.728,4.747,2.269
-2.515,2.242,5.339
11.654,-5.437,7.876
29.871,-12.036,15.514
-53.739,29.909,-31.164
11.43,27.971,-0.612
3.186,9.577,-7.935
-2.667,8.608,-13.916
0.566,2.631,-11.027
-1.274,1.828,-8.656
-0.773,2.449,-6.198
-0.853,2.862,-1.711
-0.127,0.929,0.153
2.915,0.805,3.248
3.136,0.021,5.246
2.938,0.373,5.553
2.84,-0.194,5.023
1.782,-0.363,3.479
1.232,-0.682,3.703
0.279,-0.645,2.14
0.243,0.199,1.752
0.152,0.3,1.296
0.298,-0.628,0.625
-0.365,-0.826,0.838
0.821,-0.205,-0.018
0.267,0.038,-0.724
0.349,-0.014,-0.316
0.001,0.065,-0.475
-0.29,0.651,-0.654
-0.808,0.292,-0.5
0.09,-0.72,-0.603
1.837,-1.208,-0.317
-0.892,0.274,-0.031
-0.522,0.209,0.032
0.737,0.203,-0.19
0.203,-0.004,0.197
0.139,-0.202,0.087
0.285,-0.076,0.135
-0.038,0.162,0.224
-0.104,-0.116,0.123
-0.137,-0.023,0.036
-0.015,-0.11,0.039
-0.124,0.31,-0.177
-0.041,0.121,-0.082
-0.143,-0.218,-0.017
-0.007,-0.05,-0.036
0.084,0.057,-0.008
0.233,0.145,-0.058
-0.545,0.277,0.339
-0.537,-0.161,0.074
0.119,0.081,0.337
0.006,0.126,0.249
-0.054,0.966,-0.291
-0.22,0.837,-0.049
-0.528,0.883,-0.145
1.204,0.226,-1.194
-0.198,-0.322,-1.484
1.729,-0.268,-1.116
-0.042,-0.536,-0.531
-0.094,-0.907,-0.7
-0.098,-0.585,0.029
-0.312,-0.472,-0.237
-0.352,-1.486,0.791
-0.22,-1.36,0.873
0.408,-0.875,1.069
-2.211,0.315,1.615
-4.642,2.696,1.352
0.863,0.134,-0.1
-0.04,-0.021,-0.043
-0.23,0.435,0.2
0.008,1.14,-0.61
-0.79,1.022,0.403
0.263,-0.133,0.424
1.02,-0.78,0.428
2.33,-1.634,-0.614
0.085,2.151,-1.153
-1.299,1.942,-2.529
-1.361,1.521,-1.248
-0.776,0.387,-0.416
-0.38,-0.071,0.245
0.854,-1.189,-0.089
0.035,-0.084,0.919
-0.248,0.739,-0.425
-0.571,0.615,-1.106
0.474,-1.24,0.223
2.654,-2.629,2.561
-0.734,-0.929,-0.069
-2.219,-0.218,0.916
-1.711,-0.46,1.069
-1.334,1.692,2.531
-1.659,0.636,0.028
-1.081,0.42,0.477
-2.601,3.623,0.676
-5.127,5.678,2.442
-0.642,3.92,11.055
23.915,-12.481,12.535
30.501,38.676,19.511
0.538,-28.818,24.615
-39.608,-4.232,18.108
2.828,13.272,-20.913
1.573,3.324,-14.18
-1.794,1.729,-10.482
-1.757,2.404,-5.108
-1.259,3.166,0.335
-0.071,1.844,2.516
3.344,1.51,5.452
2.993,-0.431,6.249
3.652,-0.732,6.954
0.777,-1.559,4.36
0.728,0.254,5.355
0.944,-2.706,1.083
-0.343,-0.303,1.82
-0.478,-1.251,1.132
-0.227,-0.022,0.379
-0.388,0.397,0.32
-0.886,0.184,-0.749
-0.717,-0.078,0.237
0.158,0.251,0.017
-0.113,-0.104,0.156
-0.18,-0.165,0.22
-0.179,0.067,0.027
0.062,0.242,-0.095
-0.394,-0.003,-0.007
0.015,-0.132,-0.011
-0.312,-0.502,-0.084
-0.173,0.279,-0.058
-0.221,0.026,-0.051
-0.322,-0.104,0.105
0.118,-0.301,-0.197
0.085,0.054,0.007
0.868,0.309,0.027
0.389,0.2,-0.029
0.418,0.383,-0.141
-0.051,-0.279,-0.123
-0.076,0.393,-0.11
-0.087,-0.412,-0.272
-1.916,-0.213,-0.836
-0.085,0.564,0.978
1.172,-0.619,0.817
0.379,-0.449,-0.331
-0.149,0.323,-0.423
-0.012,-0.102,-0.283
0.004,0.211,-0.419
0.635,0.039,-0.029
0.056,0.489,0.209
-0.269,0.199,0.021
-0.056,-0.132,0.465
0.006,-0.123,0.491
0.457,-0.142,0.344
0.121,-0.041,-0.275
0.164,0.324,-0.579
0.085,0.239,-0.292
0.139,0.576,-0.838
0.028,0.095,-0.908
0.071,0.265,-0.792
0.066,-0.4,-0.513
0.343,-0.705,0.947
-1.168,0.152,1.353
-0.499,-0.581,1.412
-0.824,-0.057,0.789
-0.235,-0.511,0.791
-0.219,-0.242,0.886
-0.184,0.391,0.343
-0.989,0.62,0.425
0.511,-0.185,0.095
1.309,-0.938,-0.449
0.375,-0.365,-1.261
-0.727,0.919,-1.341
0.571,0.626,-0.857
-0.611,0.298,-0.429
-0.044,1.028,-0.872
-0.279,0.683,-0.703
0.82,-0.688,-0.549
1.414,-3.423,-0.017
0.539,-0.909,1.218
-1.715,-0.221,2.63
-3.473,-0.691,1.113
-0.147,0.057,2.909
-3.416,5.595,2.007
-0.564,3.537,9.389
21.038,-6.936,12.196
37.992,34.631,27.859
-19.513,-10.74,6.626
-36.659,3.67,14.139
-1.938,10.735,-16.901
4.812,0.905,-13.102
-1.909,0.757,-8.691
-1.489,2.49,-2.993
0.859,2.119,-0.21
0.889,1.311,2.078
1.856,0.659,3.726
1.906,-0.364,4.577
3.345,-1.32,4.895
-0.166,-0.622,3.139
0.569,-0.993,2.651
-0.531,-1.031,2.014
0.304,-0.226,2.317
-0.186,-0.489,0.732
0.254,0.745,0.008
-0.077,0.274,-0.487
-0.231,0.356,-0.397
0.393,0.078,-0.523
0.936,-0.473,-0.198
0.081,0.156,-0.28
-0.097,0.091,-0.383
0.206,0.096,0.057
0.099,0.132,-0.173
0.138,0.119,-0.053
-0.018,0.03,-0.281
-0.059,0.056,-0.023
0.049,0.062,-0.195
0.074,0.125,-0.164
0.038,-0.008,-0.106
-0.027,0.098,-0.145
0.093,0.016,-0.034
0.079,0.007,-0.045
-0.043,-0.017,-0.073
-0.008,0.02,-0.224
-0.032,-0.041,-0.142
-0.122,0.093,-0.135
0.129,0.105,0.026
-1.191,1.001,0.575
-1.972,0.781,1.429
-1.689,0.283,1.744
0.476,-0.03,1.045
-0.129,0.565,0.537
1.556,1.221,0.523
2.172,1.748,0.027
1.818,1.508,-0.812
1.881,1.451,-1.233
1.928,0.701,-1.78
2.09,0.467,-2.966
1.446,1.494,-2.848
-1.806,0.544,-5.066
1.714,0.015,-1.151
-1.332,-0.337,0.564
0.243,-0.705,-0.247
-1.139,-0.757,2.481
0.566,-0.847,2.405
1.141,-2.371,2.364
2.117,-1.133,1.446
-6.451,3.296,6.271
-4.571,3.39,0.42
-3.988,2.462,2.183
-1.825,-1.152,0.778
-0.384,-1.432,0.039
5.204,-0.958,-0.175
-4.251,2.99,0.33
2.592,0.508,-2.32
-0.443,0.004,-1.37
1.289,0.015,-0.84
-0.063,0.498,-0.499
-0.383,0.788,-1.142
-1.003,0.333,-0.273
0.958,-2.552,0.684
0.399,-2.064,2.237
-1.639,0.008,0.693
-2.136,-0.097,1.467
-1.597,-0.224,0.686
0.593,1.215,-0.067
-0.631,-0.115,0.408
0.412,0.516,-0.341
-2.072,2.238,1.6
-2.898,5.635,3.476
-0.433,2.355,8.119
24.297,-12.819,9.843
19.37,53.12,18.854
-14.073,-18.069,15.526
-26.454,-5.625,14.6
4.023,14.149,-17.89
0.932,4.168,-11.9
0.35,2.061,-8.524
-0.89,2.012,-3.361
0.009,1.659,-0.898
1.085,1.848,2.135
2.339,1.212,3.306
2.809,0.023,3.82
1.492,-1.146,4.024
0.712,-1.557,4.808
1.056,-1.415,3.641
0.7,-0.551,2.123
0.024,0.486,1.578
-0.284,-0.105,0.612
0.081,-0.298,0.398
-0.048,-0.004,-0.01
-1.36,1.6,-0.419
-0.199,0.249,-0.46
0.027,0.28,-0.517
1.242,-0.172,-0.346
-0.802,0.106,-0.338
0.35,-0.293,0.249
0.339,0.262,0.059
0.28,0.238,0.189
-0.898,0.261,-0.194
-0.027,0.158,-0.39
0.562,-0.044,-0.702
0.267,0.083,-0.581
-0.106,0.123,-0.296
0.044,0.112,-0.191
-0.049,-0.141,-0.131
0.024,0.118,-0.049
0.11,0.044,-0.133
0.139,-0.078,-0.047
-0.016,-0.035,-0.156
0.038,0.07,-0.116
0.019,0.121,-0.019
0.079,0.114,-0.035
0.201,-0.02,-0.123
-0.075,0.028,-0.073
0.039,-0.072,-0.089
-0.029,0.042,-0.125
0.093,0.053,-0.261
-0.027,0.12,-0.033
0.111,-0.046,0.01
-0.124,-0.102,-0.069
-0.103,0.019,-0.096
0.16,0.043,-0.009
-0.014,-0.033,-0.033
-0.099,-0.055,-0.055
-0.107,-0.04,-0.051
0.228,-0.005,-0.055
0.001,-0.03,0.062
-0.229,-0.164,0.3
0.544,-0.094,-0.189
-0.513,0.199,0.182
0.405,-0.167,0.365
0.225,0.029,0.179
-0.819,0.776,0.26
-2.539,1.841,0.66
-0.97,1.028,1.04
0.83,-0.003,0.51
1.997,0.241,-1.041
2.026,0.555,-1.713
1.231,0.201,-2.016
1.325,-0.134,-1.781
0.817,-0.412,-1.498
-1.54,-0.622,1.423
-0.16,-0.249,-0.033
-0.708,-0.222,1.329
-1.197,-0.256,1.319
-1.015,-0.031,1.769
-0.329,0.521,2.259
-1.77,-0.55,2.484
0.376,-1.548,1.999
-0.895,-0.381,0.097
-1.996,1.396,-0.54
0.171,-1.213,0.241
1.41,0.068,-1.971
0.501,1.031,-2.313
-0.279,2.324,-1.988
0.493,1.586,-2.929
-0.362,1.12,-2.293
-0.508,-0.113,0.285
1.881,-1.745,2.7
1.573,-2.429,1.87
-3.94,-0.771,3.011
-2.442,-1.001,2.859
-1.367,3.004,3.004
-1.887,1.478,3.703
-5.08,3.272,3.402
-2.769,6.585,9.203
22.449,-9.688,12.214
41.772,40.593,29.392
0.027,-4.611,14.131
-26.385,-0.922,8.193
-3.13,12.144,-18.467
7.742,1.388,-12.956
-2.893,1.829,-9.991
-0.157,2.966,-4.389
-1.015,2.85,-1.714
0.542,2.811,2.465
2.258,1.069,4.264
2.939,0.382,5.401
2.184,-1.222,5.516
2.417,-1.579,4.096
-0.167,-0.203,4.969
0.158,-0.186,2.002
-0.692,-0.576,2.258
0.054,-0.158,0.825
-0.074,0.005,0.117
-0.011,0.454,0.117
0.679,0.062,-0.339
0.7,0.627,-0.564
0.606,0.82,-0.666
0.17,-0.559,-0.448
0.58,-1.17,0.52
0.09,-1.174,0.296
0.355,-1.128,-1.309
0.182,-0.92,0.447
-0.138,-0.163,0.336
0.729,0.055,0.363
0.711,0.349,-0.372
0.871,0.06,0.036
0.551,-0.162,0.14
0.81,-0.367,0.173
0.04,0.015,0.641
-0.435,-0.206,0.504
-0.617,-0.486,0.535
-0.962,0.161,0.642
-1.012,-0.207,0.461
-0.355,0.136,0.01
-0.623,-0.069,-0.07
-0.278,0.244,-0.457
-0.097,-0.333,-0.108
-0.827,-0.143,-0.14
0.221,-0.013,-0.079
0.259,-0.044,-0.164
0.61,0.289,-0.176
0.672,0.098,-0.155
0.444,-0.071,0.344
-0.466,0.394,0.725
-1.599,0.74,1.872
-2.372,2.131,6.061
7.097,2.883,10.929
42.82,-27.874,17.673
-49.452,27.453,5.218
-12.862,36.707,-9.382
10,19.825,-17.018
2.085,3.256,-12.137
0.808,3.604,-10.969
-1.45,2.46,-3.138
1.005,2.005,-1.316
-0.193,1.734,3.196
2.503,0.206,4.937
2.835,-1.766,5.302
1.323,-2.115,4.926
2.255,-1.11,3.645
-0.052,-0.906,3.423
0.51,-0.965,1.772
-0.736,-0.623,1.836
0.221,-0.01,0.176
-0.498,-0.152,0.513
-0.045,0.074,-0.013
-0.678,0.429,0.037
-0.064,0.081,-0.538
0.452,-0.278,-0.044
0.087,-0.07,0.24
0.047,-0.224,-0.069
0.966,-0.37,0.049
-0.177,0.231,0.157
0.421,0.157,0.057
0.006,0.152,-0.403
0.132,0,-0.371
-0.092,0.204,-0.318
-0.074,0.085,-0.012
0.555,0.681,0.464
0.031,-0.054,-0.064
0.145,-0.008,-0.206
0.044,0.019,-0.084
-0.115,0.09,-0.017
0.039,-0.047,-0.042
0.177,-0.061,-0.086
-0.057,0.092,-0.068
0.287,0.046,0.156
0.089,0.177,0.17
0.281,0.022,0.24
0.136,0.018,0.202
0.176,0.179,-0.136
0.036,0.477,-0.52
-0.172,0.536,-0.948
-0.131,0.344,-1.431
0.259,-0.554,-0.199
-1.92,-0.511,1.861
0.06,-0.538,0.733
0.725,-1.238,0.677
-1.002,-0.201,0.832
-0.055,-0.459,0.452
-0.765,-0.197,0.408
-0.333,-0.442,-0.036
-0.724,0.474,-0.175
-0.631,-0.514,-0.095
-0.455,-0.474,0.386
0.43,0.097,-0.124
0.777,0.016,0.412
0.158,0.44,-0.25
-0.821,0.965,1.304
-1.708,4.235,3.873
1.266,0.881,11.947
32.393,-18.284,16.199
-17.368,58.402,-38.127
-2.589,62.709,12.145
3.777,14.612,-15.467
1.055,7.493,-13.786
0.931,2.821,-12.853
-0.446,3.807,-8.19
-0.922,3.743,-2.644
0.471,2.495,-0.322
0.883,2.198,4.131
1.648,0.163,3.972
3.928,-1.48,6.283
1.45,-0.708,5.552
0.667,-0.848,3.751
0.635,-0.816,3.191
-0.46,-0.226,2.499
0.277,0.346,0.339
-1.192,-0.14,0.939
0.135,-0.127,0.119
-0.413,0.21,-0.2
-0.216,0.208,0.504
-0.161,0.075,-0.309
-0.358,0.336,-0.216
-0.437,0.006,-0.305
0.068,-0.443,-0.691
0.193,0.176,-0.105
0.152,0.025,-0.419
-0.104,0.013,0.407
0.282,0.074,-0.003
-0.461,-0.269,-0.218
-0.07,0.577,0.225
0.909,-0.878,-0.216
0.503,-0.483,-0.003
-0.484,0.33,0.545
-0.733,0.898,0.853
-0.973,0.496,-0.424
-0.726,0.136,0.542
-0.792,0.403,1.459
0.112,0.626,1.566
0.256,0.745,1.949
0.94,0.935,0.375
1.26,1.478,-0.615
1.997,1.327,-1.434
1.721,1.285,-2.287
2.286,0.702,-2.1
2.298,0.358,-2.215
0.372,0.028,-1.27
1.266,0.329,-1.852
0.237,-0.26,-0.532
-1.258,0.764,0.502
-3.012,1.144,1.849
-3.784,1.59,1.703
-1.752,-0.538,4.532
2.3,-2.609,2.649
1.166,-0.355,0.121
2.774,-0.095,-0.979
-0.117,0.318,-0.553
0.528,-0.26,-0.175
0.031,-2.014,-1.052
-0.401,-0.369,-0.947
-3.384,1.097,0.96
-2.163,1.34,-0.151
1.014,0.843,-0.734
1.999,0.248,-1.515
2.999,0.626,-0.946
0.782,0.357,-0.337
-0.919,-0.381,-0.013
-0.826,-1.504,0.721
-0.154,-2.975,2.378
1.369,-1.872,0.97
-0.671,-0.601,0.306
-0.377,-0.321,1.124
0.484,-0.709,0.43
-1.156,-0.161,0.292
-0.558,0.197,0.498
-0.327,-0.551,0.3
-0.091,-0.189,0.885
0.694,0.019,0.734
-0.084,-0.601,0.176
-0.528,-1.005,0.755
-0.595,-0.274,-0.223
-1.359,1.388,1.401
-1.99,3.974,1.35
-1.762,2.67,3.535
2.727,-1.788,8.163
22.535,-11.202,7.718
37.863,45.297,28.857
-24.73,-12.142,14.593
-16.849,-2.629,6.142
-4.667,11.366,-17.545
5.149,2.279,-12.755
-2.044,1.93,-9.268
-1.403,4.992,-1.722
-0.938,2.643,2.158
0.539,1.493,3.502
3.584,0.239,5.906
1.432,-2.429,6.022
4.564,-1.941,5.92
2.525,-1.875,2.469
0.512,-1.426,3.166
1.201,-0.592,0.418
-0.664,0.2,1.178
-0.335,0.294,0.344
-0.681,0.164,0.077
-0.511,0.165,-0.303
-0.262,0.369,-0.199
-0.406,-0.119,-0.297
0.198,0.064,-0.033
-0.308,0.09,-0.108
0.141,0.159,-0.157
-0.046,-0.104,-0.25
0.193,0.067,-0.037
0.21,0.016,-0.262
0.119,0.076,-0.185
0.16,-0.004,-0.144
0.001,-0.026,-0.039
0.123,0.073,-0.242
-0.246,0.348,-0.138
0.096,0.156,-0.008
0.442,-0.103,-0.006
0.119,0.132,-0.087
0.211,0.013,-0.141
0.033,0.101,-0.055
0.183,-0.116,-0.271
-0.359,0.104,-0.054
0.311,0.286,-0.643
0.276,0.795,0.626
-1.516,-0.759,-0.168
0.671,-0.696,1.061
0.198,-0.248,-0.313
0.188,0.521,-0.463
-0.963,0.91,-1.003
0.665,0.545,-0.897
-0.513,0.637,-1.051
-0.436,1.134,-0.435
0.392,-0.186,-0.035
-0.129,-0.511,0.673
0.533,-0.93,0.143
0.259,-0.821,0.152
-0.311,-0.813,0.78
-0.283,-0.974,0.261
-0.763,0.095,1.184
-0.543,-0.544,0.776
-1.461,-0.277,1.837
-1.512,3.073,0.161
-3.983,5.839,3.178
-1.123,2.871,9.792
25.462,-14.256,14.326
42.168,47.256,38.212
-5.863,-7.734,22.745
-29.949,-2.072,9.671
-0.968,16.746,-17.798
9.205,3.062,-15.897
-1.887,2.014,-10.229
-0.717,4.283,-5.61
-3.195,4.285,-0.275
-0.058,1.778,0.461
0.528,2.614,5.392
1.885,-0.532,6.224
0.621,-0.972,6.873
1.297,-1.496,6.391
-0.181,-2.336,5.009
-0.191,-0.5,3.537
0.62,-0.548,2.575
-3.841,-1.156,2.035
0.233,0.636,1.11
-2.228,1.315,0.443
0.429,0.24,-1.011
-0.578,0.29,-0.04
0.197,0.207,-0.353
-0.311,0.392,-0.244
0.201,0.242,-0.456
0.314,-0.52,0.186
-0.179,0.066,0.3
-0.147,0.047,0.301
0.467,-0.112,0.026
-0.52,-0.291,-0.088
0.13,0.33,0.065
-0.072,0.048,-0.369
0.03,0.435,-0.169
-0.126,0.674,-0.203
-0.823,0.201,-0.321
0.04,-0.136,0.312
-0.237,0.372,-0.054
0.98,-0.449,-0.103
0.612,-0.947,0.012
1.382,-0.922,-1.033
0.092,0.132,-1.212
-0.072,0.624,-1.463
0.092,0.963,-0.817
-0.646,0.581,-0.345
-0.387,0.215,-0.504
-0.507,0.242,0.349
-0.41,-0.359,-0.06
-0.818,-0.573,0.224
-1.163,0.121,0.88
-0.568,-0.269,1.426
-0.509,-1.162,0.48
-0.348,-0.734,0.925
-0.884,-0.426,1.078
-3.475,2.276,1.587
-7.696,4.507,3.064
2.77,2.693,14.837
33.037,-16.452,17.126
25.501,74.234,-6.747
-31.798,42.718,8.615
6.453,5.939,-9.12
-3.459,9.594,-13.861
6.034,1.75,-13.862
-2.05,3.636,-9.78
-1.24,4.259,-7.499
-3.447,4.99,-1.619
-0.21,5.507,1.661
0.652,1.54,5.709
3.591,0.086,6.665
4.723,-1.142,7.167
4.344,-0.855,6.841
2.537,-1.564,3.997
1.258,-1.117,4.255
0.588,-1.302,1.851
-0.296,-1.162,2.154
0.757,-1.294,0.467
-1.068,-1.106,0.276
0.56,0.318,0.55
0.142,-0.293,-0.42
1.726,-0.304,-1.004
0.548,1.056,-0.233
-0.073,-0.875,-0.353
-0.063,-0.736,-0.599
0.391,0.697,-0.47
0.243,0.476,-0.166
0.581,-0.059,-0.476
-0.53,0.13,0.13
0.791,-0.662,-0.332
-0.211,0.165,0.092
0.094,-0.575,-0.214
-0.295,0.082,-0.297
-0.4,0.39,-0.03
-0.187,0.013,0.063
-0.111,0.057,0.135
0.108,-0.356,0.1
0.065,-0.353,0.021
-0.109,0.046,0.16
0.278,0.097,0.097
-0.501,0.082,0.066
-0.098,-0.104,-0.051
0.105,-0.086,0.098
0.003,-0.109,-0.051
-0.163,-0.088,0.023
0.328,-0.266,0.024
0.104,-0.174,0.084
-0.365,-0.269,-0.096
-0.363,0.044,0.127
0.204,0.237,0.019
-0.229,0.236,0.213
0.497,0.13,0.102
0.133,0.058,0.175
0.591,0.366,0.029
0.259,0.15,-0.03
0.309,-0.094,-0.063
0.031,-0.227,-0.231
0.102,-0.245,-0.169
-0.048,-0.098,-0.127
0.081,0.122,0.087
-0.083,0.114,0.211
0.22,-0.009,0.114
0.017,0.044,0.137
0.106,-0.049,0.166
-0.087,0.189,0.029
0.023,0.01,-0.007
-0.219,0.078,0.017
0.091,0.035,-0.051
-0.018,0.037,-0.04
0.097,-0.008,-0.034
-0.058,0.027,-0.041
-0.087,-0.133,0.013
0.227,0.129,-0.077
-0.315,-0.025,0.019
-0.285,-0.008,0.046
0.133,0.038,-0.094
-0.144,0.01,-0.07
0.164,0.046,-0.014
0.044,-0.072,-0.053
-0.133,0.042,0.098
0.167,0.015,-0.088
-0.192,0.045,0.141
0.262,-0.011,-0.132
-0.771,0.305,0.116
0.067,-0.003,0.034
-0.33,-0.075,0.136
0.273,-0.042,0.002
0.203,-0.09,-0.016
-0.198,0.695,-0.905
0.657,-0.297,-0.135
