acc_x,acc_y,acc_z
0.015,0.168,1.903
-0.272,0.804,-0.304
-0.004,0.368,0.041
0.176,0.024,0.049
-0.206,0.005,0.043
1.759,0.34,-2.298
-1.391,0.112,-0.411
-0.705,-0.025,-0.177
-0.119,-0.355,0.367
-0.734,-1.737,-0.029
2.717,-0.93,0.66
0.365,0.973,1.336
-3.796,1.369,0.511
1.803,0.46,-1.585
-1.653,0.448,0.197
0.462,0.183,0.129
-0.292,0.427,-0.58
-0.494,-0.122,0.092
-0.063,-0.076,0.265
-0.672,-0.258,0.127
-0.304,0.328,0.135
0.1,-0.031,-0.186
-0.018,0.298,0.033
-0.059,-0.107,0.097
-0.435,-0.026,0.081
0.097,0.115,-0.106
-0.254,-0.164,0.108
-0.641,0.137,-0.078
2.104,1.321,2.683
6.49,0.222,3.768
14.325,-9.254,14.514
0.536,7.786,1.723
9.039,4.804,0.759
8.844,12.577,9.756
-15.628,11.837,-17.449
-1.243,-2.311,-3.156
-4.28,4.056,-2.684
1.146,-1.354,-2.168
0.628,-0.819,0.334
-1.035,-0.295,0.035
1.752,-0.252,1.029
-0.806,0.448,-0.099
-0.395,-0.187,0.053
-0.749,0.169,0.255
-0.081,0.352,-0.231
-0.873,0.485,0.802
-0.268,-1.164,-0.508
-0.413,1.071,0.486
-0.822,0.343,-0.715
-0.237,0.495,-0.185
-0.438,0.182,0.046
-0.201,-0.027,-0.748
0.253,-0.372,0.021
0.477,0.243,0.833
0.921,-0.197,0.43
0.422,0.157,0.73
-0.086,0.321,1.153
-0.177,-0.062,-0.14
1.106,0.874,1.36
-0.862,-0.355,0.463
0.818,-0.198,0.723
-0.15,-0.189,1.042
-0.239,0.073,0.743
0.557,-0.375,0.849
-1.433,1.633,1.494
1.055,0.033,1.015
-0.46,0.107,-0.3
0.711,-0.64,-0.632
-0.157,-0.35,-0.26
2.272,1.346,0.475
-3.298,1.772,-1.457
2.709,0.219,-2.834
-2.114,0.482,-0.094
-1.004,0.064,-0.456
0.002,-0.109,-0.025
-0.34,-0.321,-0.101
0.034,0.208,0.355
-0.059,-0.105,-0.213
-0.165,0.457,-0.378
-0.688,-0.17,0.035
-1.621,-0.035,-0.007
4.16,2.041,4.769
9.786,1.653,8.152
8.471,-6.833,14.877
0.565,-4.282,1.195
-1.513,26.39,-6.022
15.328,10.523,7.763
-11.742,7.182,-13.357
-3.441,2.627,-1.494
-3.499,0.026,-3.18
0.954,-0.554,0.044
-0.145,-0.569,-0.233
0.6,-0.55,0.828
-0.662,-0.202,0.16
0.253,-0.171,0.486
0.31,-1.141,-0.109
-0.454,-0.324,0.392
0.295,-0.266,0.394
-0.982,0.062,-0.074
0.081,0.009,-0.286
-0.774,0.016,0.155
-0.202,0.124,-0.513
0.205,0.598,0.333
-0.899,0.477,-0.256
0.114,0.521,-0.41
-1.432,-0.059,0.265
0.776,1.409,-0.63
-0.887,-0.38,0.655
-0.084,0.463,-0.097
0.842,0.04,-0.202
-0.988,-0.486,1.383
0.965,0.282,0.421
0.101,-0.7,0.377
0.205,0.988,1.095
0.037,-0.8,1.089
0.806,0.551,0.478
-0.855,-0.541,1.439
2.642,0.611,1.173
-1.539,-0.938,0.788
1.471,0.563,0.311
-0.708,-0.443,-0.141
0.55,-0.467,0.476
3.97,-0.831,0.956
-1.931,0.178,-0.143
-0.043,0.325,-0.488
-0.531,0.055,-0.36
-0.432,0.705,-0.241
-0.302,0.251,-0.842
-0.41,0.19,0.215
0.25,0.125,-0.533
-0.641,-0.023,-0.286
-0.259,0.024,-0.181
-0.399,0.195,-0.475
-0.404,0.271,-0.148
-0.25,0.017,-0.562
-0.267,-0.099,-0.074
-0.068,-0.105,0.179
-0.076,0.001,-0.248
1.787,-0.021,1.415
-2.186,0.929,-1.979
5.324,1.125,3.721
6.976,-1.431,10.807
8.051,-8.832,11.57
-2.595,0.274,-0.59
1.133,18.136,-0.764
14.486,8.347,7.118
-15.811,8.945,-9.031
-6.748,2.471,-2.523
-2.594,-0.719,-2.08
-1.356,0.612,-1.076
0.195,-1.302,0.517
-0.164,0.012,0.093
0.86,-0.637,0.75
-0.2,-0.346,0.141
-0.026,-0.594,0.16
-0.491,-0.263,0.172
0.349,-0.087,-0.009
0.404,-0.225,-0.225
-0.276,0.176,0.613
-0.364,-0.296,-0.477
-0.334,0.284,0.217
-0.984,0.507,0.028
-0.868,-0.044,-1.049
-0.412,0.154,0.145
-1.036,0.452,-0.126
-0.45,0.612,-0.388
-0.248,0.229,-0.054
-0.715,1.012,-0.326
-0.295,-0.676,0.191
1.107,0.568,0.885
-0.136,-0.663,0.297
0.73,-0.326,0.901
0.129,0.777,0.96
0.271,-0.736,0.728
0.26,0.078,0.887
0.667,-0.685,1.761
0.566,-0.142,2.021
-0.667,-0.306,1.144
1.703,0.338,0.37
0.169,-0.314,0.69
-0.172,-0.102,-0.799
1.491,0.484,-1.222
0.053,0.065,-0.877
-0.728,0.276,-0.44
-0.675,0.571,0.035
-0.581,0.404,-0.164
-0.074,0.199,-0.856
0.391,0.354,-0.028
-0.549,-0.068,-0.325
0.062,0.192,-0.345
-0.475,0.125,-0.585
-0.487,0.207,-0.299
0.065,0.039,-0.243
-0.447,0.011,-0.39
0.921,-1.254,0.494
0.067,-0.539,1.134
-1.989,0.448,0.537
1.907,0.399,1.56
3.968,1.557,2.743
5.341,-0.852,11.972
7.004,-1.058,10.003
0.553,-9.788,-3.826
-6.976,24.533,-2.631
6.836,5.763,8.037
-10.56,6.493,-12.473
-0.555,-0.29,-0.693
-2.804,-0.591,-1.563
-1.302,-0.898,-0.532
0.431,-1.362,0.133
0.05,-0.883,-0.267
0.743,-1.077,0.442
0.005,-1.008,0.316
0.804,-0.62,-0.176
-0.32,-0.282,-0.129
0.453,-0.53,0.276
-0.527,-0.251,-0.286
-0.337,-0.023,0.198
-0.324,0.386,-0.198
-0.016,-0.232,-0.362
-1.719,-0.33,-0.531
0.531,0.33,-0.683
-1.745,0.706,-0.308
-0.254,0.05,-0.423
0.02,0.83,-0.729
-0.484,0.05,0.58
-0.283,0.544,-0.567
0.272,-0.174,1.175
0.203,0.164,0.915
-0.077,-0.768,0.348
0.36,0.879,1.03
0.719,-0.273,1.134
0.342,0.147,0.878
1.574,-0.018,1.168
0.511,-1.057,1.184
1.038,-0.189,0.832
0.241,-0.448,0.738
0.916,0.155,0.685
-0.793,0.526,0.841
0.378,0.58,-0.427
2.509,-0.084,-1.552
-2.498,0.782,-0.441
-0.635,1.134,-1.006
-0.879,-0.262,-0.427
-0.708,0.456,-0.287
0.044,0.396,-0.574
-0.134,-0.052,-0.091
-0.48,0.076,-0.041
-0.132,0.362,-0.061
-0.095,-0.155,-0.249
-0.585,0.017,-0.163
-0.243,-0.012,-0.256
-0.048,0.179,-0.234
-0.253,-0.069,0.117
0.022,-0.085,-0.125
-0.251,0.038,-0.136
-0.298,0.019,-0.213
-0.219,-0.079,-0.071
0.394,0.038,-1.597
1.166,0.857,0.921
0.931,0.138,1.053
4.681,-0.468,2.675
5.77,-0.527,5.623
7.597,-3.723,9.335
-0.554,0.759,1.332
0.809,9.397,-4.99
3.382,2.721,7.809
-9.346,8.705,-0.292
-4.571,4.892,-6.851
-2.619,-0.037,0.165
-2.271,1.116,-1.861
-1.349,-0.674,0.105
-0.085,-0.138,0.195
-0.341,-0.697,-0.094
0.358,-0.933,0.568
0.351,-0.275,0.213
-0.287,-0.675,-0.016
0.268,-0.077,0.205
-0.915,-0.169,-0.335
0.128,0.003,0.192
-0.195,0.092,0.408
-0.295,-0.42,-0.125
-0.651,-0.227,-0.043
-0.736,0.012,-0.236
-0.32,0.072,0.27
-0.702,0.638,-0.266
-0.618,-0.029,0.09
0.03,0.096,0.108
-0.43,0.647,-0.282
1.308,-0.744,0.335
-0.648,-0.119,-0.022
0.772,-0.225,0.229
-0.542,0.951,1.061
0.15,-0.01,-0.19
-0.096,0.374,0.57
0.37,0.188,0.616
0.166,0.022,0.764
-0.077,0.038,1.432
0.634,-0.926,0.922
0.729,-0.095,1.943
0.796,-1.126,1.701
1.052,0.518,0.313
-1.693,-0.039,-0.013
1.786,0.513,0.255
0.569,-0.409,-0.347
0.038,0.275,-0.474
-2.111,-0.14,0.051
0.014,0.273,-0.395
0.067,0.569,-1.248
-0.098,0.45,-0.578
-0.496,0.198,-0.383
-0.142,0.027,-0.072
-0.381,0.032,0.002
-0.14,0.088,-0.24
-0.536,0.029,-0.194
-0.188,-0.037,-0.164
-0.042,0.21,-0.31
-0.299,0.208,-0.255
-0.339,-0.048,-0.3
-2.176,0.812,0.798
-1.906,0.726,-0.831
7.991,0.369,2.118
3.731,-1.938,6.759
2.454,-1.824,7.683
0.387,0.288,6.013
6.042,-7.547,-3.304
-7.311,13.938,0.789
6.678,4.305,3.139
-5.081,3.47,-1.963
-5.252,4.48,-5.633
-2.315,0.736,-0.924
-0.901,1.121,-1.628
-0.22,-0.059,-0.962
-0.012,0.31,-0.245
0.851,-0.441,-0.374
0.308,-0.422,0.084
0.706,-0.195,0.025
-0.304,0.022,-0.285
-0.266,0.187,-0.405
-0.049,0.263,-0.473
-0.527,-0.343,-0.025
-0.554,-0.03,-0.344
0.158,0.82,-0.243
-0.14,-0.232,-0.003
-0.725,1.133,-0.555
0.184,0.905,-0.332
-1.555,-0.096,0.789
0.566,1.264,-0.615
-0.214,-0.477,0.072
0.571,0.127,0.675
0.912,-0.771,-0.878
0.21,0.628,0.893
-0.143,0.121,0.171
-0.083,0.052,0.661
1.15,0.134,0.901
-0.043,-0.519,0.811
0.438,-0.436,1.366
0.639,-0.108,1.004
0.383,-0.24,1.648
1.449,-0.344,0.414
-0.641,0.326,0.209
-0.614,1.547,0.752
0.77,-0.011,0.372
-0.153,-0.142,-1.038
-1.221,0.033,-0.036
-0.242,0.466,-0.283
-1.085,0.056,-0.675
-0.237,0.66,-0.818
-0.194,0.213,-0.954
-0.492,0.089,0.093
0.037,-0.097,-0.18
-0.434,-0.042,-0.152
-0.537,-0.04,-0.129
-0.409,0.031,-0.06
-0.205,0.066,-0.282
-0.026,0.096,-0.168
-0.19,0.027,-0.156
0.026,0.12,-0.176
0.047,0.123,-0.165
-0.374,-0.133,-0.266
-0.156,-0.162,0.123
-0.365,0.241,0.017
5.079,0.497,0.839
0.685,1.738,2.544
6.54,-0.697,5.706
4.718,-1.199,5.544
1.878,-1.337,3.703
-0.476,-1.862,-1.747
-8.62,14.404,0.638
0.964,6.924,4.724
-4.841,6.033,-5.456
-5.399,4.084,-4.054
-2.277,0.605,-0.682
-1.316,0.532,-1.355
-0.074,-1.179,-0.89
-0.096,-0.235,-0.337
0.866,-0.504,-0.039
0.135,-0.526,-0.064
0.186,-0.337,-0.106
0.437,-0.208,-0.219
-0.1,-0.433,-0.284
0.067,-0.92,0.332
0.625,-0.123,-0.047
-0.378,0.45,0.082
-0.504,0.161,0.128
-0.613,0.219,-0.445
-0.973,0.783,-0.048
-0.278,1.285,-0.375
-0.909,-0.012,-0.387
-0.573,0.925,-0.298
-0.827,-0.405,0.268
-0.201,1.557,-0.15
0.097,-0.398,0.253
0.39,0.626,0.684
1.446,-0.426,-0.175
-0.582,-0.01,0.698
1.566,0.145,0.06
-0.359,-0.059,0.993
1.251,0.397,1.324
-0.387,-1.027,1.052
1.184,0.293,1.119
0.413,-0.569,1.292
0.49,-0.088,0.631
0.081,-0.053,-0.095
2.299,0.176,-0.045
-0.98,-0.24,0.574
-0.055,-0.179,0.116
-1.583,0.44,-0.33
-0.545,0.574,-1.56
-0.413,0.703,-1.056
-0.042,0.308,-0.458
0.071,0.045,0.119
0.038,-0.268,0.038
-0.181,0.094,-0.166
-0.384,-0.002,-0.233
-0.124,0.057,-0.266
-0.42,-0.014,-0.191
-0.227,0.275,-0.3
-0.342,-0.129,-0.368
-1.387,-0.144,-0.318
2.806,0.6,2.558
4.719,-0.152,1.841
4.951,-0.619,4.877
8.325,-1.956,9.278
1.262,-0.671,6.86
-2.477,0.61,-1.7
-8.707,17.376,-4.438
-0.333,4.534,9.314
-7.62,4.117,1.173
-4.284,4.129,-4.851
-3.866,3.211,-1.423
-1.663,-0.221,-1.661
0.237,0.185,-0.404
-0.127,-0.293,-0.967
-0.023,-0.038,-0.046
0.269,-0.43,-0.21
0.03,0.251,0.026
-0.159,-0.35,-0.172
0.118,-0.353,-0.115
0.117,-0.421,0.271
-0.461,-0.064,-0.687
0.097,-0.101,0.467
-1.128,0.099,-0.959
-0.119,0.775,-0.294
-0.589,0.327,0.278
-0.414,0.553,-0.417
-0.02,-0.339,-0.082
0.325,-0.905,0.184
0.391,-0.767,0.511
1.088,-0.527,0.114
1.177,1.275,0.549
0.052,-1.06,-0.227
-0.258,-0.169,0.903
1.493,-0.088,0.443
-0.675,-0.303,0.425
1.306,0.702,1.283
-0.804,-0.379,0.898
0.984,0.052,1.545
0.338,-0.479,0.443
-1.586,-0.491,0.36
0.615,1.518,0.404
0.374,0.102,0.355
-0.212,-0.056,-0.382
-0.694,0.343,0.04
-0.423,0.267,-0.567
-0.575,-0.044,-0.413
0.377,0.169,-0.183
0.372,0.251,-0.153
0.062,-0.088,-0.23
-0.321,0.038,-0.159
-0.195,0.181,-0.381
-0.376,-0.09,-0.12
-0.484,-0.037,-0.108
0.328,0.28,-0.26
-0.135,0.002,-0.302
0.064,-0.041,0.209
0.184,0.053,-0.107
-0.291,-0.133,-0.053
0.127,-0.121,0.195
0.026,-0.075,0.082
-0.177,0.135,-0.209
-0.042,-0.095,-0.025
-0.202,-0.061,0.04
2.262,2.399,-1.959
7.633,-7.514,8.509
7.443,-2.527,6.681
-0.999,0.591,-1.129
-1.554,14.259,-0.616
-1.894,8.422,4.902
-3.344,3.978,-4.901
-5.102,3.538,-5.223
-5.737,1.543,-1.027
-0.795,0.276,-1.031
0.681,-0.472,-0.315
0.118,-0.105,-0.007
0.333,-0.378,-0.406
-0.96,-0.042,-0.034
-0.128,0.372,-0.171
-0.268,-0.758,-0.385
-2.363,0.692,-0.542
-1.603,-0.361,-0.088
-0.461,-0.175,-0.095
-0.929,1.8,-0.564
-0.974,1.31,0.47
-0.035,0.042,-0.312
1.178,-0.054,-0.257
-0.166,-0.512,1.467
1.815,0.119,0.716
2.668,-0.537,1.055
3.519,-0.58,2.035
-0.077,-1.635,1.839
1.506,-0.658,1.208
-0.048,0.075,1.062
-0.092,-0.315,0.285
0.435,-0.789,-0.103
0.874,-1.207,0.069
-0.211,-0.043,0.245
4.413,0.458,-0.232
-2.739,2.397,-1.001
2.282,0.086,-1.803
-2.205,0.786,-0.814
-1.045,0.469,-0.601
-0.617,-0.024,0.037
-0.063,-0.397,-0.274
0.052,0.262,0.052
-0.144,-0.351,0.234
-0.149,-0.167,0.396
0.042,0.193,-0.268
-0.031,0.001,-0.504
-0.5,0.291,-0.238
1.23,0.922,2.457
3.094,0.761,2.707
5.776,-3.483,11.043
1.353,2.03,2.782
1.579,35.06,-6.366
9.526,4.726,5.913
-1.72,-1.391,-5.969
-1.68,0.579,0.478
-0.344,-0.241,-1.531
1.393,-0.162,0.523
0.123,0.194,-0.082
0.288,-0.267,0.742
0.025,-0.41,0.259
-0.251,-0.07,0.15
0.173,-0.424,-0.275
-0.247,-0.039,0.218
-0.163,0.316,-0.024
-1.09,0.825,-0.898
0.589,0.344,-0.025
-1.275,-0.328,-0.194
-0.004,0.296,-0.294
-0.557,0.806,-0.3
0.275,-0.124,-0.608
0.009,0.226,0.388
-0.423,-1.084,0.321
1.286,0.372,-0.017
0.205,-0.887,0.456
-1.304,0.04,0.176
2.497,-0.454,0.241
-0.711,-0.124,1.152
1.54,-0.816,0.736
-0.937,0.256,0.511
0.194,-0.377,0.388
0.1,0.188,1.137
-0.006,-0.318,0.439
0.496,0.254,1.28
0.495,-0.797,0.928
0.415,0.423,1.226
-0.317,0.413,-0.249
1.129,0.64,0.82
1.123,-0.425,0.098
0.178,-0.249,0.101
-0.91,0.565,0.035
-0.123,0.035,-0.367
-0.577,0.147,-0.501
0.104,0.435,-0.687
-0.41,0.088,-0.083
-0.372,-0.003,0.068
-0.03,-0.048,-0.113
-0.174,-0.007,-0.048
-0.431,-0.04,-0.08
0.943,0.066,0.135
0.841,-0.001,-1.195
0.529,0.965,1.828
7.494,-2.683,5.457
5.294,-5.87,6.93
5.855,-0.419,4.753
1.279,0.695,-2.131
-17.152,16.105,5.997
-2.088,3.413,0.696
-7.48,4.852,-4.403
-2.636,-0.05,-1.318
-1.712,0.589,-2.07
-0.196,-0.358,0.37
-0.554,-0.613,-0.186
0.676,-0.391,-0.118
-0.043,-0.481,0.342
0.473,-0.762,-0.126
0.132,-0.687,0.236
0.212,0.45,0.062
-0.618,-0.245,-0.033
0.218,0.276,-0.263
-0.263,0.121,-0.276
-0.61,0.253,-0.455
-0.361,0.55,-0.365
-0.623,0.492,-0.071
-0.308,0.188,-0.609
-0.738,0.269,-0.222
0.474,0.681,-0.16
-0.203,-0.2,-0.488
-0.062,0.271,-0.138
0.602,-0.44,0.161
1.92,-0.499,0.422
0.654,0.127,1.486
1.133,-0.362,0.902
0.147,-0.1,1.038
0.907,-0.109,1.217
0.546,-0.467,0.911
0.766,-0.74,1.178
0.111,-0.826,0.748
0.151,1.251,0.132
-1.199,0.108,-0.004
-0.731,0.252,-0.103
-0.906,0.8,-0.729
-1.294,0.68,-0.229
-0.247,-0.055,-0.529
0.139,0.304,-0.428
-0.405,0.256,-0.296
-0.448,-0.001,-0.31
-0.075,0.175,0.013
-0.024,-0.038,-0.323
-0.382,0.176,-0.242
-0.081,0.038,-0.201
-0.272,-0.073,-0.009
-0.116,0.134,0.014
-0.037,-0.055,-0.143
-0.262,0.001,-0.164
-0.292,-0.003,-0.094
-0.024,0.034,-0.234
0.734,0.36,-0.628
-0.716,-0.541,1.026
1.354,-0.243,2.394
3.188,-0.049,4.363
7.966,-5.272,9.453
6.478,-0.813,8.049
-1.216,-2.701,0.913
-17.517,22.528,-4.724
-12.471,6.314,-10.666
-1.833,0.072,-2.599
-2.769,1.297,-2.101
0.469,-1.696,-1.057
0.375,-0.764,0.254
0.972,-0.519,0.075
1.226,-1.166,0.463
0.239,0.032,0.421
0.818,-0.338,0.189
-0.152,-0.85,0.199
-0.053,0.192,-0.034
-0.336,0.076,-0.471
-0.967,-0.041,0.042
-1.181,-0.29,0.173
0.487,0.019,-0.889
-1.034,0.16,-0.228
-0.982,0.896,-0.748
-0.381,0.131,-0.126
-0.449,0.282,0.155
0.688,-0.636,0.396
-0.574,-0.221,1.127
1.71,0.094,1.163
-0.176,-0.326,0.329
1.118,-0.466,1.366
-0.171,-0.041,0.325
1.48,-0.995,1.053
-0.238,-0.103,1.408
1.108,-0.349,0.689
-0.243,0.212,1.158
1.305,-1.337,0.655
0.737,-0.531,1.481
0.882,-0.343,0.27
-1.509,0.014,-0.113
0.72,0.694,-0.124
-0.173,0.694,-0.891
0.799,0.982,-1.029
0.985,-0.056,-0.406
-0.145,0.592,-0.12
-0.48,0.174,-0.292
-0.526,-0.021,-0.348
-0.536,0.48,-0.294
-0.213,-0.301,-0.384
0.064,-0.227,-0.36
-0.59,0.303,0.065
0.463,-0.018,-0.249
-0.24,-0.086,0.213
0.038,-0.084,-0.293
0.127,0.053,-0.083
-0.238,-0.176,-0.024
0.27,-0.057,-0.279
-0.236,0.093,0.106
-0.188,0.034,-0.176
0.07,0.038,-0.172
0.147,-0.146,0.018
0.25,0.195,-0.216
-0.287,-0.13,0.054
-0.07,0.102,-0.065
0.169,0.155,-0.106
-0.149,-0.022,-0.156
0.153,0.128,-0.018
0.397,0.03,-0.284
0.09,-0.118,0.084
-0.159,0.128,0.549
0.061,-0.295,-0.112
0.404,-0.055,-0.573
0.072,0.017,-0.261
-0.043,0.072,0.069
0.182,0.046,0.06
-0.125,-0.154,-0.043
0.201,0.163,-0.088
-0.026,-0.079,-0.186
-0.059,0.165,0.142
-0.651,-0.32,0.081
0.53,0.144,0.089
-0.044,-0.04,-0.068
-0.05,-0.196,-0.045
-0.258,0.078,0.125
-0.497,-0.156,-0.525
